Folder: weil101/scripts/data

Note: readme.md
Code for the paper [Machine learning analysis to interpret the effect of the photocatalytic reaction rate constant (k) of semiconductor-based photocatalysts on dye removal]( https://doi.org/10.1016/j.jhazmat.2023.132995) .

Online reprducible examples running on readthedocs are at https://weil101.readthedocs.io/en/latest/ .

In order to reproduce the results, follow the following steps

    git clone https://github.com/AtrCheema/weil101.git

    cd weil101

    pip install -r docs/requirements.txt

    make html

File: 230331_Photocatalysis_with_Zeeshan_data_CMKim.csv
Catalyst,Hydrothermal synthesis time (min),Energy Band gap (Eg) eV,C (At%),O (At%),Fe (At%),Al (At%),Ni (At%),Mo (At%),S (At%),Bi,Ag,Pd,Pt,Surface area (m2/g),Pore volume (cm3/g),Pore size (nm),volume (L),loading (g),Catalyst_loading_mg,Light intensity (watt),Light source distance (cm),Time (m),Dye,Dye concentration (mg/L),Solution pH,Ci,HA (mg/L),Anions,log_Kw,hydrogen_bonding_acceptor_count,hydrogen_bonding_donor_count,solubility (g/L),molecular_wt (g/mol),Cf,Efficiency
LTH,300,3.03,39.85,39.84,6.08,6.76,7.47,0,0,0,0,0,0,140,0.269,8.29,0.02,0.02,20,105,9,150,Indigo,20,5,19.0345,0,0,3.0606,9,2,10,466.36,12.6437,33.5749
LTH,300,3.03,39.85,39.84,6.08,6.76,7.47,0,0,0,0,0,0,140,0.269,8.29,0.02,0.02,20,105,9,150,Indigo,20,9,19.0345,0,0,3.0606,9,2,10,466.36,11.6782,38.6473
LTH,300,3.03,39.85,39.84,6.08,6.76,7.47,0,0,0,0,0,0,140,0.269,8.29,0.02,0.02,20,105,9,30,Indigo,20,11,19.0345,0,0,3.0606,9,2,10,466.36,16.2529,14.6135
LTH,300,3.03,39.85,39.84,6.08,6.76,7.47,0,0,0,0,0,0,140,0.269,8.29,0.02,0.02,20,105,9,50,Indigo,20,11,19.0345,0,0,3.0606,9,2,10,466.36,13.4873,29.1429
LTH,300,3.03,39.85,39.84,6.08,6.76,7.47,0,0,0,0,0,0,140,0.269,8.29,0.02,0.02,20,105,9,80,Indigo,20,11,19.0345,0,0,3.0606,9,2,10,466.36,12.8347,32.5714
LTH,300,3.03,39.85,39.84,6.08,6.76,7.47,0,0,0,0,0,0,140,0.269,8.29,0.02,0.02,20,105,9,120,Indigo,20,11,19.0345,0,0,3.0606,9,2,10,466.36,11.747,38.2857
LTH,300,3.03,39.85,39.84,6.08,6.76,7.47,0,0,0,0,0,0,140,0.269,8.29,0.02,0.02,20,105,9,180,Indigo,20,11,19.0345,0,0,3.0606,9,2,10,466.36,11.4152,40.029
LM1,1320,4.61,11.16,51.39,9.1,13.68,10.85,1.13,2.69,0,0,0,0,77,0.1496,7.71,0.02,0.02,20,105,9,150,Indigo,20,5,19.0345,0,0,3.0606,9,2,10,466.36,7.27693,61.7697
LM1,1320,4.61,11.16,51.39,9.1,13.68,10.85,1.13,2.69,0,0,0,0,77,0.1496,7.71,0.02,0.02,20,105,9,150,Indigo,20,9,19.0345,0,0,3.0606,9,2,10,466.36,2.65873,86.032
LM1,1320,4.61,11.16,51.39,9.1,13.68,10.85,1.13,2.69,0,0,0,0,77,0.1496,7.71,0.02,0.02,20,105,9,30,Indigo,20,11,19.0345,0,0,3.0606,9,2,10,466.36,11.4479,39.8571
LM1,1320,4.61,11.16,51.39,9.1,13.68,10.85,1.13,2.69,0,0,0,0,77,0.1496,7.71,0.02,0.02,20,105,9,50,Indigo,20,11,19.0345,0,0,3.0606,9,2,10,466.36,9.78916,48.5714
LM1,1320,4.61,11.16,51.39,9.1,13.68,10.85,1.13,2.69,0,0,0,0,77,0.1496,7.71,0.02,0.02,20,105,9,80,Indigo,20,11,19.0345,0,0,3.0606,9,2,10,466.36,3.32832,82.5143
LM1,1320,4.61,11.16,51.39,9.1,13.68,10.85,1.13,2.69,0,0,0,0,77,0.1496,7.71,0.02,0.02,20,105,9,120,Indigo,20,11,19.0345,0,0,3.0606,9,2,10,466.36,0.761379,96
LM1,1320,4.61,11.16,51.39,9.1,13.68,10.85,1.13,2.69,0,0,0,0,77,0.1496,7.71,0.02,0.02,20,105,9,180,Indigo,20,11,19.0345,0,0,3.0606,9,2,10,466.36,0.02382266,99.8748
LM1,1320,4.61,11.16,51.39,9.1,13.68,10.85,1.13,2.69,0,0,0,0,77,0.1496,7.71,0.02,0.02,20,35,9,210,Indigo,20,11,19.0345,0,0,3.0606,9,2,10,466.36,3.91455,79.4344
LM1,1320,4.61,11.16,51.39,9.1,13.68,10.85,1.13,2.69,0,0,0,0,77,0.1496,7.71,0.02,0.02,20,105,9,210,Indigo,20,11,19.0345,0,0,3.0606,9,2,10,466.36,0.0910345,99.5217
LM1,1320,4.61,11.16,51.39,9.1,13.68,10.85,1.13,2.69,0,0,0,0,77,0.1496,7.71,0.02,0.02,20,105,16,210,Indigo,20,11,19.0345,0,0,3.0606,9,2,10,466.36,0.157576,99.1722
LM1,1320,4.61,11.16,51.39,9.1,13.68,10.85,1.13,2.69,0,0,0,0,77,0.1496,7.71,0.02,0.01,5,105,9,210,Indigo,20,11,19.0345,0,0,3.0606,9,2,10,466.36,4.75862,75
LM1,1320,4.61,11.16,51.39,9.1,13.68,10.85,1.13,2.69,0,0,0,0,77,0.1496,7.71,0.02,0.02,15,105,9,210,Indigo,20,11,19.0345,0,0,3.0606,9,2,10,466.36,1.52276,92
LM1,1320,4.61,11.16,51.39,9.1,13.68,10.85,1.13,2.69,0,0,0,0,77,0.1496,7.71,0.02,0.03,30,105,9,210,Indigo,20,11,19.0345,0,0,3.0606,9,2,10,466.36,0.190345,99
LM1,1320,4.61,11.16,51.39,9.1,13.68,10.85,1.13,2.69,0,0,0,0,77,0.1496,7.71,0.02,0.05,50,105,9,210,Indigo,20,11,19.0345,0,0,3.0606,9,2,10,466.36,0.226584,98.8096
LM1,1320,4.61,11.16,51.39,9.1,13.68,10.85,1.13,2.69,0,0,0,0,77,0.1496,7.71,0.02,0.02,20,105,9,150,Indigo,20,11,19.0345,0,0,3.0606,9,2,10,466.36,0.175761,99.0766
LM1,1320,4.61,11.16,51.39,9.1,13.68,10.85,1.13,2.69,0,0,0,0,77,0.1496,7.71,0.02,0.02,20,105,9,150,Indigo,40,11,19.0345,0,0,3.0606,9,2,10,466.36,2.86107,84.969
LM1,1320,4.61,11.16,51.39,9.1,13.68,10.85,1.13,2.69,0,0,0,0,77,0.1496,7.71,0.02,0.02,20,105,9,150,Indigo,60,11,19.0345,0,0,3.0606,9,2,10,466.36,10.2787,45.9994
LM1,1320,4.61,11.16,51.39,9.1,13.68,10.85,1.13,2.69,0,0,0,0,77,0.1496,7.71,0.02,0.02,20,105,9,150,Indigo,100,11,19.0345,0,0,3.0606,9,2,10,466.36,14.2864,24.9448
LM1.5,1320,2.74,18.63,40.11,9.95,10.67,12.95,1.79,5.9,0,0,0,0,92.21,0.175,7.6,0.02,0.02,20,105,9,150,Indigo,20,7,19.0345,0,0,3.0606,9,2,10,466.36,9.96646,47.64
LM1.5,1320,2.74,18.63,40.11,9.95,10.67,12.95,1.79,5.9,0,0,0,0,92.21,0.175,7.6,0.02,0.02,20,105,9,150,Indigo,20,11,19.0345,0,0,3.0606,9,2,10,466.36,7.13885,62.4952
LM1.5,1320,2.74,18.63,40.11,9.95,10.67,12.95,1.79,5.9,0,0,0,0,92.21,0.175,7.6,0.02,0.02,20,105,9,40,Indigo,20,11,19.0345,0,0,3.0606,9,2,10,466.36,8.94621,53
LM1.5,1320,2.74,18.63,40.11,9.95,10.67,12.95,1.79,5.9,0,0,0,0,92.21,0.175,7.6,0.02,0.02,20,105,9,60,Indigo,20,11,19.0345,0,0,3.0606,9,2,10,466.36,6.98837,63.2857
LM1.5,1320,2.74,18.63,40.11,9.95,10.67,12.95,1.79,5.9,0,0,0,0,92.21,0.175,7.6,0.02,0.02,20,105,9,100,Indigo,20,11,19.0345,0,0,3.0606,9,2,10,466.36,5.66193,70.2544
LM1.5,1320,2.74,18.63,40.11,9.95,10.67,12.95,1.79,5.9,0,0,0,0,92.21,0.175,7.6,0.02,0.02,20,105,9,150,Indigo,20,11,19.0345,0,0,3.0606,9,2,10,466.36,3.26305,82.8571
LM1.5,1320,2.74,18.63,40.11,9.95,10.67,12.95,1.79,5.9,0,0,0,0,92.21,0.175,7.6,0.02,0.02,20,105,9,210,Indigo,20,11,19.0345,0,0,3.0606,9,2,10,466.36,1.44799,92.3928
LM1.5,1320,2.74,18.63,40.11,9.95,10.67,12.95,1.79,5.9,0,0,0,0,92.21,0.175,7.6,0.02,0.02,20,70,9,210,Indigo,20,11,19.0345,0,0,3.0606,9,2,10,466.36,3.99739,78.9992
LM1.5,1320,2.74,18.63,40.11,9.95,10.67,12.95,1.79,5.9,0,0,0,0,92.21,0.175,7.6,0.02,0.02,20,105,9,210,Indigo,20,11,19.0345,0,0,3.0606,9,2,10,466.36,1.52276,92
LM1.5,1320,2.74,18.63,40.11,9.95,10.67,12.95,1.79,5.9,0,0,0,0,92.21,0.175,7.6,0.02,0.02,20,105,23,210,Indigo,20,11,19.0345,0,0,3.0606,9,2,10,466.36,1.99862,89.5
LM1.5,1320,2.74,18.63,40.11,9.95,10.67,12.95,1.79,5.9,0,0,0,0,92.21,0.175,7.6,0.02,0.01,10,105,9,150,Indigo,20,11,19.0345,0,0,3.0606,9,2,10,466.36,4.94897,74
LM1.5,1320,2.74,18.63,40.11,9.95,10.67,12.95,1.79,5.9,0,0,0,0,92.21,0.175,7.6,0.02,0.02,20,105,9,150,Indigo,20,11,19.0345,0,0,3.0606,9,2,10,466.36,1.52276,92
LM1.5,1320,2.74,18.63,40.11,9.95,10.67,12.95,1.79,5.9,0,0,0,0,92.21,0.175,7.6,0.02,0.04,40,105,9,150,Indigo,20,11,19.0345,0,0,3.0606,9,2,10,466.36,0.1944,98.9787
LM1.5,1320,2.74,18.63,40.11,9.95,10.67,12.95,1.79,5.9,0,0,0,0,92.21,0.175,7.6,0.02,0.02,20,105,9,150,Indigo,10,11,19.0345,0,0,3.0606,9,2,10,466.36,0.19669,98.9667
LM1.5,1320,2.74,18.63,40.11,9.95,10.67,12.95,1.79,5.9,0,0,0,0,92.21,0.175,7.6,0.02,0.02,20,105,9,150,Indigo,30,11,19.0345,0,0,3.0606,9,2,10,466.36,2.85517,85
LM1.5,1320,2.74,18.63,40.11,9.95,10.67,12.95,1.79,5.9,0,0,0,0,92.21,0.175,7.6,0.02,0.02,20,105,9,150,Indigo,50,11,19.0345,0,0,3.0606,9,2,10,466.36,8.18483,57
LM1.5,1320,2.74,18.63,40.11,9.95,10.67,12.95,1.79,5.9,0,0,0,0,92.21,0.175,7.6,0.02,0.02,20,105,9,150,Indigo,80,11,19.0345,0,0,3.0606,9,2,10,466.36,12.2909,35.4281
LM2,1320,2.66,14.52,33,9.03,10.08,13.13,3,17.24,0,0,0,0,19.54,0.0956,18.98,0.02,0.02,20,105,9,150,Indigo,20,5,19.0345,0,0,3.0606,9,2,10,466.36,10.3448,45.6522
LM2,1320,2.66,14.52,33,9.03,10.08,13.13,3,17.24,0,0,0,0,19.54,0.0956,18.98,0.02,0.02,20,105,9,150,Indigo,20,9,19.0345,0,0,3.0606,9,2,10,466.36,7.1389,62.4949
LM2,1320,2.66,14.52,33,9.03,10.08,13.13,3,17.24,0,0,0,0,19.54,0.0956,18.98,0.02,0.02,20,105,9,30,Indigo,20,11,19.0345,0,0,3.0606,9,2,10,466.36,9.32702,50.9993
LM2,1320,2.66,14.52,33,9.03,10.08,13.13,3,17.24,0,0,0,0,19.54,0.0956,18.98,0.02,0.02,20,105,9,50,Indigo,20,11,19.0345,0,0,3.0606,9,2,10,466.36,8.45675,55.5714
LM2,1320,2.66,14.52,33,9.03,10.08,13.13,3,17.24,0,0,0,0,19.54,0.0956,18.98,0.02,0.02,20,105,9,80,Indigo,20,11,19.0345,0,0,3.0606,9,2,10,466.36,6.82522,64.1429
LM2,1320,2.66,14.52,33,9.03,10.08,13.13,3,17.24,0,0,0,0,19.54,0.0956,18.98,0.02,0.02,20,105,9,120,Indigo,20,11,19.0345,0,0,3.0606,9,2,10,466.36,5.35685,71.8571
LM2,1320,2.66,14.52,33,9.03,10.08,13.13,3,17.24,0,0,0,0,19.54,0.0956,18.98,0.02,0.02,20,105,9,180,Indigo,20,11,19.0345,0,0,3.0606,9,2,10,466.36,3.33544,82.4769
LM2,1320,2.66,14.52,33,9.03,10.08,13.13,3,17.24,0,0,0,0,19.54,0.0956,18.98,0.02,0.02,20,35,9,210,Indigo,20,11,19.0345,0,0,3.0606,9,2,10,466.36,6.28138,67
LM2,1320,2.66,14.52,33,9.03,10.08,13.13,3,17.24,0,0,0,0,19.54,0.0956,18.98,0.02,0.02,20,105,9,210,Indigo,20,11,19.0345,0,0,3.0606,9,2,10,466.36,2.47448,87
LM2,1320,2.66,14.52,33,9.03,10.08,13.13,3,17.24,0,0,0,0,19.54,0.0956,18.98,0.02,0.02,20,105,16,210,Indigo,20,11,19.0345,0,0,3.0606,9,2,10,466.36,2.32221,87.8
LM2,1320,2.66,14.52,33,9.03,10.08,13.13,3,17.24,0,0,0,0,19.54,0.0956,18.98,0.02,0.01,5,105,9,150,Indigo,20,11,19.0345,0,0,3.0606,9,2,10,466.36,7.2331,62
LM2,1320,2.66,14.52,33,9.03,10.08,13.13,3,17.24,0,0,0,0,19.54,0.0956,18.98,0.02,0.02,15,105,9,150,Indigo,20,11,19.0345,0,0,3.0606,9,2,10,466.36,4.18759,78
LM2,1320,2.66,14.52,33,9.03,10.08,13.13,3,17.24,0,0,0,0,19.54,0.0956,18.98,0.02,0.03,30,105,9,150,Indigo,20,11,19.0345,0,0,3.0606,9,2,10,466.36,1.90469,89.9935
LM2,1320,2.66,14.52,33,9.03,10.08,13.13,3,17.24,0,0,0,0,19.54,0.0956,18.98,0.02,0.05,50,105,9,150,Indigo,20,11,19.0345,0,0,3.0606,9,2,10,466.36,0.951724,95
LM2,1320,2.66,14.52,33,9.03,10.08,13.13,3,17.24,0,0,0,0,19.54,0.0956,18.98,0.02,0.02,20,105,9,150,Indigo,20,11,19.0345,0,0,3.0606,9,2,10,466.36,2.50575,86.8357
LM2,1320,2.66,14.52,33,9.03,10.08,13.13,3,17.24,0,0,0,0,19.54,0.0956,18.98,0.02,0.02,20,105,9,150,Indigo,40,11,19.0345,0,0,3.0606,9,2,10,466.36,4.75862,75
LM2,1320,2.66,14.52,33,9.03,10.08,13.13,3,17.24,0,0,0,0,19.54,0.0956,18.98,0.02,0.02,20,105,9,150,Indigo,60,11,19.0345,0,0,3.0606,9,2,10,466.36,12.5641,33.9928
LM2,1320,2.66,14.52,33,9.03,10.08,13.13,3,17.24,0,0,0,0,19.54,0.0956,18.98,0.02,0.02,20,105,9,150,Indigo,100,11,19.0345,0,0,3.0606,9,2,10,466.36,16.1793,15
LM2,1320,2.66,14.52,33,9.03,10.08,13.13,3,17.24,0,0,0,0,19.54,0.0956,18.98,0.02,0.02,20,105,9,150,Indigo,100,11,19.0345,0,0,3.0606,9,2,10,466.36,16.0354,15.756
no catalyst,0,0,0,0,0,0,0,0,0,0,0,0,0,0,0,0,0.1,0,0,105,12,0,Melachite Green,10,5.45,10,0,without Anion,1.3976,2,0,40,364.911,10,0
no catalyst,0,0,0,0,0,0,0,0,0,0,0,0,0,0,0,0,0.1,0,0,105,12,30,Melachite Green,10,5.45,10,0,without Anion,1.3976,2,0,40,364.911,9.98,0.2
no catalyst,0,0,0,0,0,0,0,0,0,0,0,0,0,0,0,0,0.1,0,0,105,12,60,Melachite Green,10,5.45,10,0,without Anion,1.3976,2,0,40,364.911,9.96,0.4
no catalyst,0,0,0,0,0,0,0,0,0,0,0,0,0,0,0,0,0.1,0,0,105,12,90,Melachite Green,10,5.45,10,0,without Anion,1.3976,2,0,40,364.911,9.94,0.6
no catalyst,0,0,0,0,0,0,0,0,0,0,0,0,0,0,0,0,0.1,0,0,105,12,120,Melachite Green,10,5.45,10,0,without Anion,1.3976,2,0,40,364.911,9.87,1.3
no catalyst,0,0,0,0,0,0,0,0,0,0,0,0,0,0,0,0,0.1,0,0,105,12,150,Melachite Green,10,5.45,10,0,without Anion,1.3976,2,0,40,364.911,9.83,1.7
no catalyst,0,0,0,0,0,0,0,0,0,0,0,0,0,0,0,0,0.1,0,0,105,12,180,Melachite Green,10,5.45,10,0,without Anion,1.3976,2,0,40,364.911,9.82,1.8
no catalyst,0,0,0,0,0,0,0,0,0,0,0,0,0,0,0,0,0.1,0,0,105,12,210,Melachite Green,10,5.45,10,0,without Anion,1.3976,2,0,40,364.911,9.82,1.8
no catalyst,0,0,0,0,0,0,0,0,0,0,0,0,0,0,0,0,0.1,0,0,105,12,240,Melachite Green,10,5.45,10,0,without Anion,1.3976,2,0,40,364.911,9.81,1.9
no catalyst,0,0,0,0,0,0,0,0,0,0,0,0,0,0,0,0,0.1,0,0,105,12,270,Melachite Green,10,5.45,10,0,without Anion,1.3976,2,0,40,364.911,9.8,2
no catalyst,0,0,0,0,0,0,0,0,0,0,0,0,0,0,0,0,0.1,0,0,105,12,0,Melachite Green,10,5.45,10,0,without Anion,1.3976,2,0,40,364.911,10,0
no catalyst,0,0,0,0,0,0,0,0,0,0,0,0,0,0,0,0,0.1,0,0,105,12,30,Melachite Green,10,5.45,10,0,without Anion,1.3976,2,0,40,364.911,9.97,0.3
no catalyst,0,0,0,0,0,0,0,0,0,0,0,0,0,0,0,0,0.1,0,0,105,12,60,Melachite Green,10,5.45,10,0,without Anion,1.3976,2,0,40,364.911,9.95,0.5
no catalyst,0,0,0,0,0,0,0,0,0,0,0,0,0,0,0,0,0.1,0,0,105,12,90,Melachite Green,10,5.45,10,0,without Anion,1.3976,2,0,40,364.911,9.91,0.9
no catalyst,0,0,0,0,0,0,0,0,0,0,0,0,0,0,0,0,0.1,0,0,105,12,120,Melachite Green,10,5.45,10,0,without Anion,1.3976,2,0,40,364.911,9.88,1.2
no catalyst,0,0,0,0,0,0,0,0,0,0,0,0,0,0,0,0,0.1,0,0,105,12,150,Melachite Green,10,5.45,10,0,without Anion,1.3976,2,0,40,364.911,9.85,1.5
no catalyst,0,0,0,0,0,0,0,0,0,0,0,0,0,0,0,0,0.1,0,0,105,12,180,Melachite Green,10,5.45,10,0,without Anion,1.3976,2,0,40,364.911,9.81,1.9
no catalyst,0,0,0,0,0,0,0,0,0,0,0,0,0,0,0,0,0.1,0,0,105,12,210,Melachite Green,10,5.45,10,0,without Anion,1.3976,2,0,40,364.911,9.79,2.1
no catalyst,0,0,0,0,0,0,0,0,0,0,0,0,0,0,0,0,0.1,0,0,105,12,240,Melachite Green,10,5.45,10,0,without Anion,1.3976,2,0,40,364.911,9.79,2.1
no catalyst,0,0,0,0,0,0,0,0,0,0,0,0,0,0,0,0,0.1,0,0,105,12,270,Melachite Green,10,5.45,10,0,without Anion,1.3976,2,0,40,364.911,9.78,2.2
no catalyst,0,0,0,0,0,0,0,0,0,0,0,0,0,0,0,0,0.1,0,0,105,12,0,Melachite Green,10,5.45,10,0,without Anion,1.3976,2,0,40,364.911,10,0
no catalyst,0,0,0,0,0,0,0,0,0,0,0,0,0,0,0,0,0.1,0,0,105,12,30,Melachite Green,10,5.45,10,0,without Anion,1.3976,2,0,40,364.911,9.97,0.3
no catalyst,0,0,0,0,0,0,0,0,0,0,0,0,0,0,0,0,0.1,0,0,105,12,60,Melachite Green,10,5.45,10,0,without Anion,1.3976,2,0,40,364.911,9.91,0.9
no catalyst,0,0,0,0,0,0,0,0,0,0,0,0,0,0,0,0,0.1,0,0,105,12,90,Melachite Green,10,5.45,10,0,without Anion,1.3976,2,0,40,364.911,9.88,1.2
no catalyst,0,0,0,0,0,0,0,0,0,0,0,0,0,0,0,0,0.1,0,0,105,12,120,Melachite Green,10,5.45,10,0,without Anion,1.3976,2,0,40,364.911,9.87,1.3
no catalyst,0,0,0,0,0,0,0,0,0,0,0,0,0,0,0,0,0.1,0,0,105,12,150,Melachite Green,10,5.45,10,0,without Anion,1.3976,2,0,40,364.911,9.85,1.5
no catalyst,0,0,0,0,0,0,0,0,0,0,0,0,0,0,0,0,0.1,0,0,105,12,180,Melachite Green,10,5.45,10,0,without Anion,1.3976,2,0,40,364.911,9.83,1.7
no catalyst,0,0,0,0,0,0,0,0,0,0,0,0,0,0,0,0,0.1,0,0,105,12,210,Melachite Green,10,5.45,10,0,without Anion,1.3976,2,0,40,364.911,9.8,2
no catalyst,0,0,0,0,0,0,0,0,0,0,0,0,0,0,0,0,0.1,0,0,105,12,240,Melachite Green,10,5.45,10,0,without Anion,1.3976,2,0,40,364.911,9.79,2.1
no catalyst,0,0,0,0,0,0,0,0,0,0,0,0,0,0,0,0,0.1,0,0,105,12,270,Melachite Green,10,5.45,10,0,without Anion,1.3976,2,0,40,364.911,9.78,2.2
pure BFO,720,2.6,0,31.6,13.1,0,0,0,0,55.3,0,0,0,11.2,0.0028,1.15,0.1,0.1,100,105,12,0,Melachite Green,10,5.45,10,0,without Anion,1.3976,2,0,40,364.911,10,0
pure BFO,720,2.6,0,31.6,13.1,0,0,0,0,55.3,0,0,0,11.2,0.0028,1.15,0.1,0.1,100,105,12,0,Melachite Green,10,5.45,10,0,without Anion,1.3976,2,0,40,364.911,10,0
0.5 wt% Pd-BFO,960,2.28,0,31.35,13,0,0,0,0,55.16,0,0.49,0,13.4,0.0033,1.48,0.1,0.1,100,105,12,0,Melachite Green,10,5.45,10,0,without Anion,1.3976,2,0,40,364.911,10,0
1 wt% Pd-BFO,960,2.2,0,29.17,13.99,0,0,0,0,55.83,0,1.01,0,16.7,0.0037,1.82,0.1,0.1,100,105,12,0,Melachite Green,10,5.45,10,0,without Anion,1.3976,2,0,40,364.911,10,0
1 wt% Pd-BFO,960,2.2,0,29.17,13.99,0,0,0,0,55.83,0,1.01,0,16.7,0.0037,1.82,0.1,0.1,100,105,12,0,Melachite Green,10,5.45,10,0,without Anion,1.3976,2,0,40,364.911,10,0
2 wt% Pd-BFO,960,2.1,0,26.1,16.99,0,0,0,0,54.9,0,2.01,0,22.9,0.0046,2.67,0.1,0.1,100,105,12,0,Melachite Green,10,5.45,10,0,without Anion,1.3976,2,0,40,364.911,10,0
3 wt% Pd-BFO,960,2.22,0,25.84,16.65,0,0,0,0,54.46,0,3.05,0,19.5,0.0042,2.34,0.1,0.1,100,105,12,0,Melachite Green,10,5.45,10,0,without Anion,1.3976,2,0,40,364.911,10,0
3 wt% Pd-BFO,960,2.22,0,25.84,16.65,0,0,0,0,54.46,0,3.05,0,19.5,0.0042,2.34,0.1,0.1,100,105,12,0,Melachite Green,10,5.45,10,0,without Anion,1.3976,2,0,40,364.911,10,0
1 wt% Ag-BFO,960,2.5,0,28.98,14.99,0,0,0,0,55.19,0.84,0,0,11.9,0.0028,1.27,0.1,0.1,100,105,12,0,Melachite Green,10,5.45,10,0,without Anion,1.3976,2,0,40,364.911,10,0
2 wt% Ag-BFO,960,2.45,0,31.4,12.5,0,0,0,0,54.7,1.4,0,0,14.6,0.0032,1.44,0.1,0.1,100,105,12,0,Melachite Green,10,5.45,10,0,without Anion,1.3976,2,0,40,364.911,10,0
2 wt% Ag-BFO,960,2.45,0,31.4,12.5,0,0,0,0,54.7,1.4,0,0,14.6,0.0032,1.44,0.1,0.1,100,105,12,0,Melachite Green,10,5.45,10,0,without Anion,1.3976,2,0,40,364.911,10,0
3 wt% Ag-BFO,960,2.3,0,30.89,12.36,0,0,0,0,53.98,2.77,0,0,17.8,0.0039,1.94,0.1,0.1,100,105,12,0,Melachite Green,10,5.45,10,0,without Anion,1.3976,2,0,40,364.911,10,0
4 wt% Ag-BFO,960,2.53,0,30.69,12.02,0,0,0,0,53.6,3.69,0,0,15.1,0.0033,1.81,0.1,0.1,100,105,12,0,Melachite Green,10,5.45,10,0,without Anion,1.3976,2,0,40,364.911,10,0
4 wt% Ag-BFO,960,2.53,0,30.69,12.02,0,0,0,0,53.6,3.69,0,0,15.1,0.0033,1.81,0.1,0.1,100,105,12,0,Melachite Green,10,5.45,10,0,without Anion,1.3976,2,0,40,364.911,10,0
0.25 wt% Pt-BFO,960,2.5,0,26.82,17.43,0,0,0,0,55.51,0,0,0.24,13.5,0.003,1.53,0.1,0.1,100,105,12,0,Melachite Green,10,5.45,10,0,without Anion,1.3976,2,0,40,364.911,10,0
0.5 wt% Pt-BFO,960,2.45,0,26.75,17.35,0,0,0,0,55.4,0,0,0.5,19.5,0.0039,2.02,0.1,0.1,100,105,12,0,Melachite Green,10,5.45,10,0,without Anion,1.3976,2,0,40,364.911,10,0
0.5 wt% Pt-BFO,960,2.45,0,26.75,17.35,0,0,0,0,55.4,0,0,0.5,19.5,0.0039,2.02,0.1,0.1,100,105,12,0,Melachite Green,10,5.45,10,0,without Anion,1.3976,2,0,40,364.911,10,0
1 wt% Pt-BFO,960,2.35,0,26.52,17.27,0,0,0,0,55.2,0,0,1.01,17.8,0.0035,1.87,0.1,0.1,100,105,12,0,Melachite Green,10,5.45,10,0,without Anion,1.3976,2,0,40,364.911,10,0
2 wt% Pt-BFO,960,2.3,0,26.1,17,0,0,0,0,54.9,0,0,2,16.4,0.0034,1.81,0.1,0.1,100,105,12,0,Melachite Green,10,5.45,10,0,without Anion,1.3976,2,0,40,364.911,10,0
2 wt% Pt-BFO,960,2.3,0,26.1,17,0,0,0,0,54.9,0,0,2,16.4,0.0034,1.81,0.1,0.1,100,105,12,0,Melachite Green,10,5.45,10,0,without Anion,1.3976,2,0,40,364.911,10,0
2 wt% Pd-BFO,960,2.1,0,26.1,16.99,0,0,0,0,54.9,0,2.01,0,22.9,0.0046,2.67,0.1,0.1,100,0,12,0,Melachite Green,10,5.45,10,0,without Anion,1.3976,2,0,40,364.911,10,0
2 wt% Pd-BFO,960,2.1,0,26.1,16.99,0,0,0,0,54.9,0,2.01,0,22.9,0.0046,2.67,0.1,0.1,100,25,12,0,Melachite Green,10,5.45,10,0,without Anion,1.3976,2,0,40,364.911,10,0
2 wt% Pd-BFO,960,2.1,0,26.1,16.99,0,0,0,0,54.9,0,2.01,0,22.9,0.0046,2.67,0.1,0.1,100,25,12,0,Melachite Green,10,5.45,10,0,without Anion,1.3976,2,0,40,364.911,10,0
2 wt% Pd-BFO,960,2.1,0,26.1,16.99,0,0,0,0,54.9,0,2.01,0,22.9,0.0046,2.67,0.1,0.1,100,55,12,0,Melachite Green,10,5.45,10,0,without Anion,1.3976,2,0,40,364.911,10,0
2 wt% Pd-BFO,960,2.1,0,26.1,16.99,0,0,0,0,54.9,0,2.01,0,22.9,0.0046,2.67,0.1,0.05,50,105,12,0,Melachite Green,10,5.45,10,0,without Anion,1.3976,2,0,40,364.911,10,0
2 wt% Pd-BFO,960,2.1,0,26.1,16.99,0,0,0,0,54.9,0,2.01,0,22.9,0.0046,2.67,0.1,0.05,50,105,12,0,Melachite Green,10,5.45,10,0,without Anion,1.3976,2,0,40,364.911,10,0
2 wt% Pd-BFO,960,2.1,0,26.1,16.99,0,0,0,0,54.9,0,2.01,0,22.9,0.0046,2.67,0.1,0.15,150,105,12,0,Melachite Green,10,5.45,10,0,without Anion,1.3976,2,0,40,364.911,10,0
2 wt% Pd-BFO,960,2.1,0,26.1,16.99,0,0,0,0,54.9,0,2.01,0,22.9,0.0046,2.67,0.1,0.2,200,105,12,0,Melachite Green,10,5.45,10,0,without Anion,1.3976,2,0,40,364.911,10,0
2 wt% Pd-BFO,960,2.1,0,26.1,16.99,0,0,0,0,54.9,0,2.01,0,22.9,0.0046,2.67,0.1,0.2,200,105,12,0,Melachite Green,10,5.45,10,0,without Anion,1.3976,2,0,40,364.911,10,0
2 wt% Pd-BFO,960,2.1,0,26.1,16.99,0,0,0,0,54.9,0,2.01,0,22.9,0.0046,2.67,0.1,0.25,250,105,12,0,Melachite Green,10,5.45,10,0,without Anion,1.3976,2,0,40,364.911,10,0
2 wt% Pd-BFO,960,2.1,0,26.1,16.99,0,0,0,0,54.9,0,2.01,0,22.9,0.0046,2.67,0.1,0.15,150,105,12,0,Melachite Green,5,5.45,5,0,without Anion,1.3976,2,0,40,364.911,5,0
2 wt% Pd-BFO,960,2.1,0,26.1,16.99,0,0,0,0,54.9,0,2.01,0,22.9,0.0046,2.67,0.1,0.15,150,105,12,0,Melachite Green,5,5.45,5,0,without Anion,1.3976,2,0,40,364.911,5,0
2 wt% Pd-BFO,960,2.1,0,26.1,16.99,0,0,0,0,54.9,0,2.01,0,22.9,0.0046,2.67,0.1,0.15,150,105,12,0,Melachite Green,10,5.45,10,0,without Anion,1.3976,2,0,40,364.911,10,0
2 wt% Pd-BFO,960,2.1,0,26.1,16.99,0,0,0,0,54.9,0,2.01,0,22.9,0.0046,2.67,0.1,0.15,150,105,12,0,Melachite Green,20,5.45,20,0,without Anion,1.3976,2,0,40,364.911,20,0
2 wt% Pd-BFO,960,2.1,0,26.1,16.99,0,0,0,0,54.9,0,2.01,0,22.9,0.0046,2.67,0.1,0.15,150,105,12,0,Melachite Green,20,5.45,20,0,without Anion,1.3976,2,0,40,364.911,20,0
2 wt% Pd-BFO,960,2.1,0,26.1,16.99,0,0,0,0,54.9,0,2.01,0,22.9,0.0046,2.67,0.1,0.15,150,105,12,0,Melachite Green,40,5.45,40,0,without Anion,1.3976,2,0,40,364.911,40,0
2 wt% Pd-BFO,960,2.1,0,26.1,16.99,0,0,0,0,54.9,0,2.01,0,22.9,0.0046,2.67,0.1,0.15,150,105,12,0,Melachite Green,80,5.45,80,0,without Anion,1.3976,2,0,40,364.911,80,0
2 wt% Pd-BFO,960,2.1,0,26.1,16.99,0,0,0,0,54.9,0,2.01,0,22.9,0.0046,2.67,0.1,0.15,150,105,12,0,Melachite Green,80,5.45,80,0,without Anion,1.3976,2,0,40,364.911,80,0
2 wt% Pd-BFO,960,2.1,0,26.1,16.99,0,0,0,0,54.9,0,2.01,0,22.9,0.0046,2.67,0.1,0.15,150,105,12,0,Melachite Green,5,3,5,0,without Anion,1.3976,2,0,40,364.911,5,0
2 wt% Pd-BFO,960,2.1,0,26.1,16.99,0,0,0,0,54.9,0,2.01,0,22.9,0.0046,2.67,0.1,0.15,150,105,12,0,Melachite Green,5,5,5,0,without Anion,1.3976,2,0,40,364.911,5,0
2 wt% Pd-BFO,960,2.1,0,26.1,16.99,0,0,0,0,54.9,0,2.01,0,22.9,0.0046,2.67,0.1,0.15,150,105,12,0,Melachite Green,5,5,5,0,without Anion,1.3976,2,0,40,364.911,5,0
2 wt% Pd-BFO,960,2.1,0,26.1,16.99,0,0,0,0,54.9,0,2.01,0,22.9,0.0046,2.67,0.1,0.15,150,105,12,0,Melachite Green,5,7,5,0,without Anion,1.3976,2,0,40,364.911,5,0
2 wt% Pd-BFO,960,2.1,0,26.1,16.99,0,0,0,0,54.9,0,2.01,0,22.9,0.0046,2.67,0.1,0.15,150,105,12,0,Melachite Green,5,9,5,0,without Anion,1.3976,2,0,40,364.911,5,0
2 wt% Pd-BFO,960,2.1,0,26.1,16.99,0,0,0,0,54.9,0,2.01,0,22.9,0.0046,2.67,0.1,0.15,150,105,12,0,Melachite Green,5,9,5,0,without Anion,1.3976,2,0,40,364.911,5,0
2 wt% Pd-BFO,960,2.1,0,26.1,16.99,0,0,0,0,54.9,0,2.01,0,22.9,0.0046,2.67,0.1,0.15,150,105,12,0,Melachite Green,5,7,5,2,without Anion,1.3976,2,0,40,364.911,5,0
2 wt% Pd-BFO,960,2.1,0,26.1,16.99,0,0,0,0,54.9,0,2.01,0,22.9,0.0046,2.67,0.1,0.15,150,105,12,0,Melachite Green,5,7,5,5,without Anion,1.3976,2,0,40,364.911,5,0
2 wt% Pd-BFO,960,2.1,0,26.1,16.99,0,0,0,0,54.9,0,2.01,0,22.9,0.0046,2.67,0.1,0.15,150,105,12,0,Melachite Green,5,7,5,5,without Anion,1.3976,2,0,40,364.911,5,0
2 wt% Pd-BFO,960,2.1,0,26.1,16.99,0,0,0,0,54.9,0,2.01,0,22.9,0.0046,2.67,0.1,0.15,150,105,12,0,Melachite Green,5,7,5,7,without Anion,1.3976,2,0,40,364.911,5,0
2 wt% Pd-BFO,960,2.1,0,26.1,16.99,0,0,0,0,54.9,0,2.01,0,22.9,0.0046,2.67,0.1,0.15,150,105,12,0,Melachite Green,5,7,5,10,without Anion,1.3976,2,0,40,364.911,5,0
2 wt% Pd-BFO,960,2.1,0,26.1,16.99,0,0,0,0,54.9,0,2.01,0,22.9,0.0046,2.67,0.1,0.15,150,105,12,0,Melachite Green,5,7,5,10,without Anion,1.3976,2,0,40,364.911,5,0
2 wt% Pd-BFO,960,2.1,0,26.1,16.99,0,0,0,0,54.9,0,2.01,0,22.9,0.0046,2.67,0.1,0.15,150,105,12,0,Melachite Green,5,7,5,0,NaCl,1.3976,2,0,40,364.911,5,0
2 wt% Pd-BFO,960,2.1,0,26.1,16.99,0,0,0,0,54.9,0,2.01,0,22.9,0.0046,2.67,0.1,0.15,150,105,12,0,Melachite Green,5,7,5,0,Na2SO4,1.3976,2,0,40,364.911,5,0
2 wt% Pd-BFO,960,2.1,0,26.1,16.99,0,0,0,0,54.9,0,2.01,0,22.9,0.0046,2.67,0.1,0.15,150,105,12,0,Melachite Green,5,7,5,0,Na2SO4,1.3976,2,0,40,364.911,5,0
2 wt% Pd-BFO,960,2.1,0,26.1,16.99,0,0,0,0,54.9,0,2.01,0,22.9,0.0046,2.67,0.1,0.15,150,105,12,0,Melachite Green,5,7,5,0,NaCO3,1.3976,2,0,40,364.911,5,0
2 wt% Pd-BFO,960,2.1,0,26.1,16.99,0,0,0,0,54.9,0,2.01,0,22.9,0.0046,2.67,0.1,0.15,150,105,12,0,Melachite Green,5,7,5,0,NaHCO3,1.3976,2,0,40,364.911,5,0
2 wt% Pd-BFO,960,2.1,0,26.1,16.99,0,0,0,0,54.9,0,2.01,0,22.9,0.0046,2.67,0.1,0.15,150,105,12,0,Melachite Green,5,7,5,0,NaHCO3,1.3976,2,0,40,364.911,5,0
2 wt% Pd-BFO,960,2.1,0,26.1,16.99,0,0,0,0,54.9,0,2.01,0,22.9,0.0046,2.67,0.1,0.15,150,105,12,0,Melachite Green,5,7,5,0,Na2HPO4,1.3976,2,0,40,364.911,5,0
2 wt% Pd-BFO,960,2.1,0,26.1,16.99,0,0,0,0,54.9,0,2.01,0,22.9,0.0046,2.67,0.1,0.15,150,105,12,270,Melachite Green,5,7,5,0,Na2HPO4,1.3976,2,0,40,364.911,1.05,79